##BLOCKS= 2          
Note:~End
Plate:	HBL100 UNC0642/nothing	1.3	PlateFormat	Endpoint	Absorbance	Raw	FALSE	1						1	570	1	11	96	2	6	None	
	Temperature(Â°C)	1	2	3	4	5	6	7	8	9	10	11	12		
	26.80														
		0.0456	0.0906	0.258	0.8602	1.595	1.4553	1.5193	1.2936	1.6225	1.5228	1.8378			
		0.0443	0.0888	0.5467	1.3093	1.0582	1.3582	1.5127	1.7208	1.5784	1.5994	1.5519			
		0.045	0.096	0.5586	1.3063	1.3067	1.4158	1.5686	1.7512	1.5991	1.5722	1.3491			
		0.0485	0.096	0.1288	1.0325	1.415	1.6172	1.7068	1.4422	1.4116	1.4314	1.2736			
		0.0444	0.1106	0.1195	1.1364	1.305	1.4583	1.3574	1.357	1.4028	1.4101	1.1941			
		0.044	0.1131	0.1166	1.0038	1.3953	1.6684	1.5481	1.3766	1.2795	1.538	1.4905			
															
		
~End
Instrument type: Instrument serial number:
